File: thinFilmData/Reflectance-calcs.txt
Wavelength (nm)	Reflectance
200	0.4605309
201	0.4661467
202	0.5197799
203	0.5879694
204	0.6460365
205	0.686249
206	0.7089651
207	0.7160696
208	0.7086085
209	0.6863681
210	0.6483859
211	0.586262
212	0.5129568
213	0.4555607
214	0.4481939
215	0.4942991
216	0.5619313
217	0.623622
218	0.6684892
219	0.6955998
220	0.7066479
221	0.7029931
222	0.6848806
223	0.6514782
224	0.6022753
225	0.5405089
226	0.4784246
227	0.4368918
228	0.4348077
229	0.4706148
230	0.5249843
231	0.5782082
232	0.6212545
233	0.6514405
234	0.6693215
235	0.6759095
236	0.6719586
237	0.657882
238	0.6338269
239	0.5993841
240	0.5554413
241	0.5063505
242	0.4593823
243	0.4266713
244	0.4202855
245	0.4436109
246	0.4884574
247	0.541678
248	0.592248
249	0.634723
250	0.6673575
251	0.69011
252	0.7042884
253	0.7106397
254	0.709758
255	0.7018636
256	0.687089
257	0.6654997
258	0.6371765
259	0.6035313
260	0.5672942
261	0.5337488
262	0.5084908
263	0.4999761
264	0.5117049
265	0.5406361
266	0.5786077
267	0.6189702
268	0.6559969
269	0.6875526
270	0.7123385
271	0.730279
272	0.7422573
273	0.7485352
274	0.7494563
275	0.7452892
276	0.7361737
277	0.7219942
278	0.7025089
279	0.6775793
280	0.6474868
281	0.6129306
282	0.5757606
283	0.5392268
284	0.5076972
285	0.485685
286	0.4762264
287	0.4802669
288	0.4942174
289	0.5151078
290	0.5383814
291	0.5616072
292	0.5826733
293	0.6007153
294	0.6152047
295	0.6259873
296	0.6331103
297	0.6366197
298	0.6366431
299	0.6332259
300	0.6262334
301	0.6156254
302	0.6013453
303	0.5833526
304	0.5615202
305	0.5359435
306	0.5069472
307	0.4750159
308	0.4411005
309	0.4066376
310	0.3734781
311	0.3441089
312	0.320774
313	0.3055949
314	0.299837
315	0.3037511
316	0.3164929
317	0.3362945
318	0.3609954
319	0.3883539
320	0.4164634
321	0.4436517
322	0.4690001
323	0.4918777
324	0.5119132
325	0.5289027
326	0.5426844
327	0.5534429
328	0.561266
329	0.5661976
330	0.5683201
331	0.5677185
332	0.5644124
333	0.558419
334	0.5497624
335	0.5384976
336	0.5247319
337	0.508426
338	0.4896922
339	0.468743
340	0.4459166
341	0.4217007
342	0.3966526
343	0.3716263
344	0.3476661
345	0.3259281
346	0.3076179
347	0.2939008
348	0.2857163
349	0.2836488
350	0.287869
351	0.2979845
352	0.3133951
353	0.3331672
354	0.3561097
355	0.381084
356	0.4069766
357	0.4328809
358	0.458045
359	0.4816553
360	0.5033807
361	0.5227969
362	0.5398078
363	0.5541952
364	0.5658592
365	0.5748927
366	0.5811735
367	0.5849471
368	0.5862539
369	0.5853679
370	0.5821306
371	0.5768567
372	0.5694024
373	0.5599494
374	0.5484104
375	0.5349062
376	0.5196236
377	0.5024759
378	0.4838477
379	0.4637455
380	0.4423361
381	0.4198639
382	0.3964589
383	0.3725544
384	0.3487216
385	0.3250863
386	0.3025865
387	0.2813938
388	0.2622857
389	0.2457524
390	0.2321502
391	0.2220941
392	0.2155261
393	0.2127165
394	0.2135065
395	0.217637
396	0.2249461
397	0.2347994
398	0.2468411
399	0.2605288
400	0.2753283
401	0.2908645
402	0.3066575
403	0.3224357
404	0.3379218
405	0.3527991
406	0.3669118
407	0.3800995
408	0.392285
409	0.4035145
410	0.4135872
411	0.4225316
412	0.430341
413	0.4369453
414	0.4424308
415	0.4467601
416	0.4499158
417	0.4520092
418	0.4529639
419	0.4528056
420	0.4516173
421	0.4493271
422	0.4459759
423	0.4416131
424	0.4361878
425	0.4297447
426	0.4223578
427	0.4139811
428	0.4046699
429	0.3944558
430	0.3833407
431	0.3714063
432	0.3587063
433	0.3452723
434	0.3312481
435	0.3167329
436	0.3016951
437	0.2863141
438	0.2707277
439	0.2551273
440	0.2397294
441	0.224906
442	0.2106243
443	0.1970884
444	0.1845134
445	0.1730726
446	0.1629043
447	0.1542883
448	0.1472792
449	0.1419785
450	0.1384771
451	0.1368091
452	0.1369618
453	0.1388913
454	0.1424969
455	0.1476572
456	0.1542435
457	0.1621275
458	0.1711044
459	0.1809996
460	0.1916637
461	0.2028227
462	0.2143817
463	0.2261872
464	0.2380984
465	0.2499909
466	0.2618333
467	0.2735793
468	0.2850159
469	0.2960541
470	0.3066083
471	0.3165501
472	0.3259519
473	0.3347826
474	0.3431769
475	0.350987
476	0.3581553
477	0.3646536
478	0.3703972
479	0.3755029
480	0.3799712
481	0.3838347
482	0.387096
483	0.3897223
484	0.3917192
485	0.3931128
486	0.3939021
487	0.3940864
488	0.3936728
489	0.3926765
490	0.3910993
491	0.3889481
492	0.3862311
493	0.3829829
494	0.3791842
495	0.3748444
496	0.3699767
497	0.3646276
498	0.3587732
499	0.352427
500	0.3456031
501	0.3383529
502	0.3306634
503	0.3225557
504	0.3140549
505	0.3052627
506	0.2960795
507	0.2865922
508	0.2768373
509	0.2667857
510	0.2565358
511	0.2461453
512	0.2356671
513	0.2252103
514	0.2148057
515	0.2044914
516	0.1943936
517	0.1845176
518	0.1749316
519	0.1656961
520	0.156878
521	0.148495
522	0.1406696
523	0.1334583
524	0.1269176
525	0.1210986
526	0.116078
527	0.111857
528	0.1084605
529	0.1059091
530	0.1042146
531	0.1033747
532	0.1033816
533	0.1042215
534	0.1058724
535	0.1083132
536	0.111538
537	0.1154737
538	0.1200728
539	0.125284
540	0.131096
541	0.1373604
542	0.1440666
543	0.1511567
544	0.1585682
545	0.1662324
546	0.1741107
547	0.1821508
548	0.1903033
549	0.1985628
550	0.2069025
551	0.2152243
552	0.2234897
553	0.2316636
554	0.2396556
555	0.2474434
556	0.2550566
557	0.2624743
558	0.2696768
559	0.2766976
560	0.2835139
561	0.2900673
562	0.2963469
563	0.3023434
564	0.3080319
565	0.3134042
566	0.318478
567	0.3232497
568	0.3277167
569	0.3318886
570	0.3357806
571	0.3393627
572	0.3426348
573	0.3455981
574	0.3482535
575	0.350609
576	0.3526605
577	0.35441
578	0.3558598
579	0.3570123
580	0.3578691
581	0.3584296
582	0.3587074
583	0.3587052
584	0.3584258
585	0.3578758
586	0.3570633
587	0.3559772
588	0.3546206
589	0.3529969
590	0.3511094
591	0.3489676
592	0.3465722
593	0.3439234
594	0.3410249
595	0.3378811
596	0.3344963
597	0.3308843
598	0.3270415
599	0.3229726
600	0.3186831
601	0.3142136
602	0.3095408
603	0.3046792
604	0.2996262
605	0.2943897
606	0.2889355
607	0.2833116
608	0.2775275
609	0.2715931
610	0.2655187
611	0.2593635
612	0.2530932
613	0.2467199
614	0.2402604
615	0.233736
616	0.2270981
617	0.2204119
618	0.2136933
619	0.2069593
620	0.2002258
621	0.1935084
622	0.1868281
623	0.1802036
624	0.1736558
625	0.1672018
626	0.1609075
627	0.1547511
628	0.1487448
629	0.142906
630	0.1372547
631	0.1318085
632	0.1265844
633	0.1216019
634	0.1168782
635	0.1124253
636	0.1082316
637	0.104344
638	0.1007742
639	0.0975335
640	0.0946303
641	0.0920871
642	0.0898923
643	0.0880477
644	0.0865581
645	0.0854279
646	0.0846627
647	0.0842682
648	0.0842367
649	0.0845641
650	0.0852492
651	0.0862622
652	0.0876071
653	0.0892801
654	0.0912715
655	0.0935639
656	0.096145
657	0.0990108
658	0.1021384
659	0.1055132
660	0.1091134
661	0.1129668
662	0.1170249
663	0.1212717
664	0.1256933
665	0.1302715
666	0.1349404
667	0.1397346
668	0.1446396
669	0.1496375
670	0.1547139
671	0.1598551
672	0.1650474
673	0.1702777
674	0.1755343
675	0.1808081
676	0.1860841
677	0.1913515
678	0.1966061
679	0.2018383
680	0.2070329
681	0.2122326
682	0.2173822
683	0.2224702
684	0.2274883
685	0.23243
686	0.237244
687	0.2419716
688	0.2466077
689	0.2511474
690	0.2555853
691	0.2599193
692	0.264146
693	0.2682621
694	0.2722647
695	0.2761517
696	0.2799211
697	0.2835689
698	0.2870938
699	0.2904962
700	0.2937749
701	0.2969326
702	0.2999679
703	0.3028772
704	0.3056601
705	0.3083169
706	0.3108473
707	0.3132508
708	0.3155275
709	0.3176716
710	0.3196843
711	0.3215708
712	0.3233315
713	0.3249781
714	0.3265125
715	0.3279229
716	0.3292099
717	0.3303798
718	0.3314379
719	0.3323748
720	0.3331912
721	0.3338899
722	0.3344617
723	0.3349144
724	0.3352489
725	0.3354661
726	0.3355607
727	0.3355398
728	0.3354042
729	0.3351552
730	0.3348031
731	0.3343455
732	0.3337786
733	0.3331033
734	0.3323236
735	0.3314423
736	0.3304556
737	0.3293647
738	0.3281703
739	0.3268592
740	0.3254472
741	0.3239355
742	0.3223254
743	0.3206161
744	0.3188096
745	0.3169083
746	0.3149137
747	0.3128263
748	0.310643
749	0.3083705
750	0.3060102
751	0.3035637
752	0.3010426
753	0.2984448
754	0.2957656
755	0.2930066
756	0.2901698
757	0.2872692
758	0.2842943
759	0.2812472
760	0.2781296
761	0.2749614
762	0.2717307
763	0.2684367
764	0.2650817
765	0.2616681
766	0.2582029
767	0.2546862
768	0.2511182
769	0.2475017
770	0.2438393
771	0.2401003
772	0.23632
773	0.2325025
774	0.2286508
775	0.2247668
776	0.2208433
777	0.2168955
778	0.2129271
779	0.2089416
780	0.2049456
781	0.2009494
782	0.1969469
783	0.192942
784	0.1889385
785	0.1849393
786	0.1809474
787	0.1769689
788	0.173008
789	0.1690687
790	0.1651571
791	0.1612797
792	0.1574362
793	0.1536311
794	0.1498685
795	0.1461505
796	0.1424775
797	0.1388598
798	0.1353014
799	0.1318065
800	0.1283781
801	0.1250134
802	0.1217244
803	0.1185149
804	0.1153886
805	0.1123492
806	0.109419
807	0.1065835
808	0.1038449
809	0.1012065
810	0.0986713
811	0.0962618
812	0.0939647
813	0.0917775
814	0.0897027
815	0.0877425
816	0.0858943
817	0.0841555
818	0.082537
819	0.0810404
820	0.079667
821	0.0784147
822	0.0772825
823	0.0762772
824	0.0753996
825	0.0746502
826	0.0740289
827	0.0735379
828	0.073177
829	0.0729434
830	0.0728363
831	0.0728506
832	0.0729881
833	0.0732475
834	0.0736274
835	0.0741263
836	0.0747424
837	0.0754738
838	0.0763185
839	0.0772744
840	0.0783392
841	0.079521
842	0.080808
843	0.0821974
844	0.0836865
845	0.0852723
846	0.086952
847	0.0887226
848	0.0905809
849	0.0925238
850	0.0945482
851	0.0966508
852	0.0988283
853	0.1010774
854	0.1033951
855	0.1057778
856	0.1082223
857	0.1107252
858	0.1132834
859	0.1158935
860	0.1185522
861	0.1212375
862	0.1239646
863	0.1267305
864	0.129532
865	0.1323662
866	0.1352301
867	0.1381208
868	0.1410354
869	0.143971
870	0.1469252
871	0.1499153
872	0.1529187
873	0.1559327
874	0.1589549
875	0.1619827
876	0.1650138
877	0.1680458
878	0.1710767
879	0.1741041
880	0.177126
881	0.1801202
882	0.1831052
883	0.186079
884	0.1890399
885	0.191986
886	0.1949247
887	0.1978589
888	0.200774
889	0.2036685
890	0.206541
891	0.2093902
892	0.2122149
893	0.2150139
894	0.2177859
895	0.22053
896	0.223245
897	0.22593
898	0.2285841
899	0.2312064
900	0.2337959
901	0.2363691
902	0.2389076
903	0.2414109
904	0.2438781
905	0.2463088
906	0.2487024
907	0.2510582
908	0.2533759
909	0.2556549
910	0.2578949
911	0.2600809
912	0.2622276
913	0.2643347
914	0.2664019
915	0.2684289
916	0.2704153
917	0.2723612
918	0.2742663
919	0.2761304
920	0.2779534
921	0.279747
922	0.2814987
923	0.2832084
924	0.2848761
925	0.2865017
926	0.2880852
927	0.2896266
928	0.2911259
929	0.2925831
930	0.2939981
931	0.2953621
932	0.2966845
933	0.2979656
934	0.2992054
935	0.3004041
936	0.3015616
937	0.3026781
938	0.3037538
939	0.3047886
940	0.3057829
941	0.3067366
942	0.30765
943	0.3085232
944	0.3093564
945	0.3101496
946	0.3109032
947	0.3116171
948	0.3122918
949	0.3129272
950	0.3135236
951	0.3140851
952	0.3146074
953	0.3150908
954	0.3155389
955	0.315956
956	0.3163348
957	0.3166756
958	0.3169784
959	0.3172435
960	0.3174712
961	0.3176602
962	0.3178125
963	0.3179286
964	0.3180085
965	0.3180525
966	0.3180608
967	0.3180336
968	0.3179712
969	0.3178737
970	0.3177414
971	0.3175746
972	0.3173734
973	0.3171381
974	0.3168688
975	0.316566
976	0.3162296
977	0.3158601
978	0.3154576
979	0.3150224
980	0.3145547
981	0.3140516
982	0.313516
983	0.3129483
984	0.3123486
985	0.3117172
986	0.3110544
987	0.3103603
988	0.3096353
989	0.3088796
990	0.3080934
991	0.3072823
992	0.3064417
993	0.3055717
994	0.3046728
995	0.3037451
996	0.302789
997	0.3018046
998	0.3007923
999	0.2997523
1000	0.2986849